Folder: isotherm-analyzer/data/reports

Note: data/reports/AY22-13 MTT_2725-ASMS_St4_2022_11_27_01 (t-Plot Method Micropore Analysis).txt
Quantachrome ASWin™ - Automated Gas Sorption Data
                                     Acquisition and Reduction
                                ©1994-2013, Quantachrome Instruments
                                            version 2.02

Analysis                                          Report
Operator:      Ayupov         Date:11/27/2022     Operator: Ayupov              Date:2022/12/08
Sample ID:     AY22-13 MTT         Filename:      AY22-13 MTT_2725-ASMS_St4_2022_11_27_01.QPS
Sample Desc:   Pirutko             Comment:        
Outgas Time:   3.0 hrs             Outgas Temp:   300.0 °C            Sample Weight: 0.1693 g
Analysis gas:  Nitrogen            Molec. Wt:     28.0134 g           Non-ideality:  6.58e-05 1/Torr
Analysis Time: 1678.5 min          Instrument:    Autosorb Station 4  Bath temp.:    77.3 K
                                     Data Reduction Parameters
               Thermal Transpiration: offEff. mol. diameter (D): 3.54 ÅEff. cell stem diam. (d): 4.0000 mm
 
t-Method       Calc. method: de Boer
Adsorbate      Nitrogen                 Temperature    77.350K
               Molec. Wt.: 28.013       Cross Section: 16.200  Å²     Liquid Density: 0.808  g/cc

            Relative                        Thickness                     Volume @ STP
            Pressure                                                             
                                              (nm)                           (cc/g)

               2.099609e-01                    4.4331e-01                     79.619
               2.349422e-01                    4.5935e-01                     80.866
               2.600666e-01                    4.7544e-01                     82.046
               2.851166e-01                    4.9156e-01                     83.203
               3.100126e-01                    5.0776e-01                     84.361
               3.348961e-01                    5.2422e-01                     85.540
               3.598845e-01                    5.4109e-01                     86.724
               3.847746e-01                    5.5832e-01                     87.917
               4.096945e-01                    5.7609e-01                     89.130

                                             V-t method summary
                                         Thickness method: DeBoer
                                           Slope =         7.145
                                       Intercept =        48.043
                     Correlation coefficient, r  =         0.999869
 
                                Micropore volume =         0.074 cc/g
                                  Micropore area =       182.109 m²/g
                           External surface area =       110.513 m²/g

Note: data/reports/AY22-67 _2783-ASMS_St1_2023_01_24_01 (Alpha-S method).txt
Quantachrome ASWin™ - Automated Gas Sorption Data
                                     Acquisition and Reduction
                                ©1994-2013, Quantachrome Instruments
                                            version 2.02

Analysis                                          Report
Operator:      Ayupov         Date:1/24/2023      Operator: Ayupov              Date:2023/03/02
Sample ID:     AY22-67             Filename:      AY22-67 _2783-ASMS_St1_2023_01_24_01.QPS
Sample Desc:   Afonnikowa          Comment:        
Outgas Time:   9.0 hrs             Outgas Temp:   300.0 °C            Sample Weight: 0.2519 g
Analysis gas:  Nitrogen            Molec. Wt:     28.0134 g           Non-ideality:  6.58e-05 1/Torr
Analysis Time: 1420.9 min          Instrument:    Autosorb Station 1  Bath temp.:    77.3 K
                                     Data Reduction Parameters
               Thermal Transpiration: offEff. mol. diameter (D): 3.54 ÅEff. cell stem diam. (d): 4.0000 mm
 
Alpha-s method Std. isotherm: CABOT_BP_280P / Po :     0.40
Adsorbate      Nitrogen                 Temperature    77.350K
               Molec. Wt.: 28.013       Cross Section: 16.200  Å²     Liquid Density: 0.808  g/cc

          P/Po                Volume @ STP             Liquid Vol.                Alpha
                                                                                     
                                  cc/g                    cc/g                       

           6.5163e-01              1.2442e+02              1.9245e-01              1.3365e+00
           6.7670e-01              1.2654e+02              1.9574e-01              1.3792e+00
           7.0090e-01              1.2880e+02              1.9922e-01              1.4249e+00
           7.2520e-01              1.3116e+02              2.0288e-01              1.4765e+00
           7.4935e-01              1.3372e+02              2.0683e-01              1.5349e+00
           7.7299e-01              1.3643e+02              2.1104e-01              1.5964e+00
           7.9662e-01              1.3942e+02              2.1566e-01              1.6687e+00
           8.2586e-01              1.4386e+02              2.2252e-01              1.7751e+00

                                           Alpha-S method summary
                                           Slope =        44.178
                               Alpha-S Intercept =        65.715 cc/g
                         Correlation coefficient =         0.999
 
                                Micropore volume =         0.102 cc/g

Note: data/reports/AY22-69_2785-ASMS_St3_2023_01_24_01 (Alpha-S method).txt
Quantachrome ASWin™ - Automated Gas Sorption Data
                                     Acquisition and Reduction
                                ©1994-2013, Quantachrome Instruments
                                            version 2.02

Analysis                                          Report
Operator:      Ayupov         Date:1/24/2023      Operator: Ayupov              Date:2023/03/02
Sample ID:     AY22-69             Filename:      AY22-69_2785-ASMS_St3_2023_01_24_01.QPS
Sample Desc:   Afonnikowa          Comment:        
Outgas Time:   9.0 hrs             Outgas Temp:   300.0 °C            Sample Weight: 0.2032 g
Analysis gas:  Nitrogen            Molec. Wt:     28.0134 g           Non-ideality:  6.58e-05 1/Torr
Analysis Time: 1554.4 min          Instrument:    Autosorb Station 3  Bath temp.:    77.3 K
                                     Data Reduction Parameters
               Thermal Transpiration: offEff. mol. diameter (D): 3.54 ÅEff. cell stem diam. (d): 4.0000 mm
 
Alpha-s method Std. isotherm: CABOT_BP_280P / Po :     0.40
Adsorbate      Nitrogen                 Temperature    77.350K
               Molec. Wt.: 28.013       Cross Section: 16.200  Å²     Liquid Density: 0.808  g/cc

          P/Po                Volume @ STP             Liquid Vol.                Alpha
                                                                                     
                                  cc/g                    cc/g                       

           7.9551e-01              1.3440e+02              2.0790e-01              1.6653e+00
           8.2384e-01              1.4081e+02              2.1780e-01              1.7669e+00
           8.4868e-01              1.4754e+02              2.2822e-01              1.8774e+00
           8.7109e-01              1.5498e+02              2.3972e-01              2.0019e+00
           8.9818e-01              1.6619e+02              2.5706e-01              2.2054e+00
           9.0563e-01              1.7027e+02              2.6338e-01              2.2867e+00
           9.1768e-01              1.7828e+02              2.7577e-01              2.4224e+00
           9.2348e-01              1.8179e+02              2.8119e-01              2.5146e+00

                                           Alpha-S method summary
                                           Slope =        56.196
                               Alpha-S Intercept =        41.687 cc/g
                         Correlation coefficient =         0.999
 
                                Micropore volume =         0.064 cc/g

File: Al2O3-550_2579-ASMS_St2_2022_09_25_01 (Isotherm).TXT
'Relative Pressure' 'Quantity Adsorbed (cm3/g STP)'
1.34063e-02 38.9376
1.94625e-02 41.0540
2.49835e-02 42.5764
3.01505e-02 43.7916
3.57303e-02 44.8735
4.20141e-02 46.0438
4.98100e-02 47.3372
5.94464e-02 48.7615
7.16860e-02 50.3989
8.40872e-02 51.9044
9.11736e-02 52.7171
1.07790e-01 54.5058
1.30545e-01 56.8321
1.55177e-01 59.2298
1.80009e-01 61.6208
2.05165e-01 63.9672
2.30141e-01 66.2902
2.55058e-01 68.6020
2.79854e-01 70.9534
3.04629e-01 73.3350
3.29243e-01 75.8058
3.53856e-01 78.3357
3.77911e-01 81.0435
4.02644e-01 83.8035
4.27014e-01 86.6624
4.51342e-01 89.6816
4.75553e-01 92.8456
4.99400e-01 96.2415
5.30955e-01 101.1435
5.49342e-01 104.5274
5.78874e-01 110.1705
6.03372e-01 115.5112
6.28118e-01 121.7020
6.50076e-01 128.0388
6.72462e-01 136.3937
7.00262e-01 148.0295
7.21607e-01 159.7174
7.51594e-01 182.7790
7.74098e-01 204.5280
7.97792e-01 234.3557
8.22710e-01 271.2041
8.45371e-01 311.3998
8.72171e-01 361.9020
8.95369e-01 391.6764
9.08807e-01 398.0700
9.20518e-01 401.1961
9.30646e-01 403.2176
9.38645e-01 404.5957
9.46392e-01 406.5376
9.56440e-01 408.3761
9.66357e-01 410.2544
9.76376e-01 412.1272
9.83024e-01 413.6706
9.88046e-01 415.2372
9.93859e-01 417.8195
9.98451e-01 420.7269
9.91648e-01 418.5383
9.82866e-01 416.6660
9.73247e-01 415.3388
9.63937e-01 414.3754
9.54020e-01 413.5034
9.43403e-01 412.7319
9.33016e-01 412.0168
9.22566e-01 411.3483
9.13715e-01 410.7814
9.07239e-01 410.3189
8.96760e-01 410.1131
8.87713e-01 409.6588
8.74226e-01 408.8683
8.45993e-01 407.0209
8.27535e-01 403.3628
8.04278e-01 352.6116
7.79734e-01 284.8049
7.53837e-01 238.7237
7.29626e-01 204.4077
7.04174e-01 176.2081
6.79398e-01 155.5228
6.52288e-01 137.8890
6.27624e-01 127.2933
5.99335e-01 118.2700
5.73187e-01 112.3660
5.54086e-01 108.2632
5.22976e-01 102.5334
5.00464e-01 99.1764
4.68909e-01 94.6094
4.47549e-01 91.6313
4.25177e-01 88.4557
4.00696e-01 85.3282
3.75328e-01 82.3332
3.49499e-01 79.4779
3.23713e-01 76.7235
2.97926e-01 73.9833
2.72149e-01 71.3552
2.46868e-01 68.8019
2.21188e-01 66.2963
1.95725e-01 63.8256
1.70499e-01 61.3445
1.45440e-01 58.8029
1.20625e-01 56.1903
9.61299e-02 53.4367
7.19558e-02 50.4603
4.87385e-02 47.1437
2.54932e-02 42.6218

File: ImportFrom_AY24-22 CK4660K41(III)_3361-ASMS_St4_2024_02_21_01_ads (at 2024-02-27-07-08-24)_report_01.txt
== Analysis Data ==
                             *** This data was imported from a human readable text file. ***
Sample Desc:                              Comment:
Instrument:       User Import             Sample Weight:    0.0317 g
Adsorbate:        Nitrogen                Analysis Temp.:   77.3 K
Analysis time     1194.49                 Ambient temp      300.0                   Instrument        AS6KR/MP
Station           4                       Software Version  2.02                    Sample Outgassing Time24.00
Sample Outgassing Temp300.00
== Data Reduction Parameters ==
                  Thermal Transpiration: off    Eff. mol. diameter (D): 3.54 Å      Eff. cell stem diam. (d): 4.0000 mm
t-Method          Calc. method: Halsey
MP method         Thickness interval: 0.50A
Alpha-s method    Std. isotherm: CABOT_BP_280   P / Po :          0.40
BJH/DH method     Moving pt. avg.: 11           Ignoring P-tags below 0.35 P/Po
DA Method         Incr. E:    500.000           Incr. n:          0.100             Interact. Const. (K): 2.960nm³ x kJ / mol
DR method         Affinity coefficient (ß): 0.3300
Adsorbate model   Nitrogen                      Temperature       77.350K
                  Molec. Wt.: 28.013            Cross Section:    16.200  Å²        Liquid Density:   0.808  g/cc
                  Contact Angle: 0.0  degrees   Surf. Tension:    8.850  erg/cm²
                  Critical Temp.: 126.200  K    Critical Press.:  33.500  atm       SuperCritic. K.:  1.000
                  Avg. Diameter:0.300  nm       Polarizability:   1.460  (cc/molec) x 10-24Magn. Suscept.:2.000
                  Molec. Density6.700  (mol/cm²)x1014
Adsorbent model   Carbon
                  Atom Diameter: 0.340  nm      Surf. Atom Dens.: 38.450  (mol/cm²)x1014Polarizability: 1.020  (cc/molec)x10-24
                                                Magn. Susc.:      13.500  (cc/molec)x10-29
== Volume/Area summary ==
                                                   Surface Area Data

MultiPoint BET                                                                           9.278e+02 m²/g
BJH method cumulative adsorption surface area                                            3.871e+01 m²/g
BJH method cumulative desorption surface area                                            3.871e+01 m²/g
DFT cumulative surface area                                                              8.905e+02 m²/g

                                                    Pore Volume Data

Total pore volume for pores with Diameter
less than 3194.10 nm at P/Po = 0.999400                                                  4.563e-01 cc/g
BJH method cumulative adsorption pore volume                                             9.284e-02 cc/g
BJH method cumulative desorption pore volume                                             9.284e-02 cc/g
DFT method cumulative pore volume                                                        3.853e-01 cc/g

                                                     Pore Size Data

Average pore Diameter                                                                    1.967e+00 nm
BJH method adsorption pore Diameter (Mode Dv(d))                                         3.175e+00 nm
BJH method desorption pore Diameter (Mode Dv(d))                                         3.175e+00 nm
DFT pore Diameter (Mode)                                                                 7.230e-01 nm

== Isotherm ==

                          Relative                                                  Volume @ STP
                          Pressure
                                                                                        cc/g

                             5.52895e-03                                               186.9872
                             8.67155e-03                                               193.7380
                             2.02377e-02                                               206.1281
                             3.25234e-02                                               213.5415
                             4.44547e-02                                               218.3867
                             6.27447e-02                                               223.4437
                             8.81064e-02                                               228.2469
                             1.12721e-01                                               231.6059
                             1.62878e-01                                               236.4937
                             2.13180e-01                                               239.9207
                             2.63279e-01                                               243.2951
                             3.13348e-01                                               245.9595
                             3.63356e-01                                               248.0979
                             4.13287e-01                                               250.3663
                             4.63322e-01                                               252.1824
                             5.13180e-01                                               254.1769
                             5.63188e-01                                               255.7531
                             6.13034e-01                                               257.3983
                             6.63184e-01                                               258.9101
                             7.12865e-01                                               260.7242
                             7.63058e-01                                               262.2166
                             8.13035e-01                                               263.5057
                             8.62799e-01                                               265.4956
                             9.12771e-01                                               267.1396
                             9.33257e-01                                               268.4776
                             9.44033e-01                                               269.2417
                             9.63606e-01                                               270.2715
                             9.83035e-01                                               272.9389
                             9.93083e-01                                               275.6469
                             9.93083e-01                                               275.6469
                             9.83035e-01                                               272.9389
                             9.63606e-01                                               270.2715
                             9.44033e-01                                               269.2417
                             9.33257e-01                                               268.4776
                             9.12771e-01                                               267.1396
                             8.62799e-01                                               265.4956
                             8.13035e-01                                               263.5057
                             7.63058e-01                                               262.2166
[...]
                  0.850435                            265                                    265.1
                  0.855611                            265.4                                  265.2
                  0.860713                            265.5                                  265.4
                  0.865997                            265.5                                  265.6
                  0.870895                            265.9                                  265.8
                  0.875283                            266                                    265.9
                  0.879628                            266                                    266
                  0.884128                            266.1                                  266.2
                  0.888729                            266.4                                  266.3
                  0.892728                            266.4                                  266.5
                  0.896501                            266.7                                  266.6
                  0.900408                            266.7                                  266.7
                  0.90412                             266.8                                  266.8
                  0.907624                            266.8                                  267
                  0.911023                            267.1                                  267.1
                  0.914242                            267.2                                  267.2
                  0.917354                            267.3                                  267.3
                  0.920344                            267.7                                  267.4
                  0.923219                            267.7                                  267.5
                  0.926044                            267.8                                  267.8
                  0.928725                            267.8                                  268
                  0.931356                            268.6                                  268.3
                  0.933842                            268.6                                  268.5
                  0.936285                            268.6                                  268.8
                  0.938596                            269                                    269.1
                  0.940847                            269.2                                  269.1
                  0.943008                            269.3                                  269.2
                  0.945071                            269.3                                  269.3
                  0.947121                            269.3                                  269.4
                  0.949031                            269.6                                  269.5
                  0.950914                            269.6                                  269.6
                  0.952736                            269.7                                  269.7
                  0.954437                            269.8                                  269.8
                  0.956137                            269.8                                  269.9
                  0.957766                            270                                    270
                  0.959279                            270                                    270
                  0.959772                            270                                    270.1